{
  "resourceType": "Bundle",
  "id": "ex04",
  "meta": {
    "profile": [
      "http://www.mycarenet.be/fhir/StructureDefinition/be-mycareneteagreementdemandreply"
    ]
  },
  "timestamp": "2015-07-14T11:15:33+02:00",
  "type": "transaction",
  "entry": [
    {
      "resource": {
        "resourceType": "MessageHeader",
        "id": "MessageHeaderEx04",
        "meta": {
          "profile": [
            "http://www.mycarenet.be/fhir/StructureDefinition/be-mycareneteagreementmessageheader"
          ]
        },
        "eventCoding": {
          "system": "http://www.mycarenet.be/fhir/CodeSystem/message-events",
          "code": "claimresponse-decide"
        },
        "destination": [
          {
            "endpoint": "urn:uuid:PractitionerRoleEx04",
            "receiver": {
              "reference": "PractitionerRole/PractitionerRoleEx04"
            }
          }
        ],
        "sender": {
          "reference": "Organization/OrganizationEx04"
        },
        "source": {
          "endpoint": "urn:uuid:OrganizationEx04"
        },
        "response": {
          "identifier": "267b18ce-3d37-4581-9baa-6fada338038b",
          "code": "ok"
        },
        "focus": [
          {
            "reference": "ClaimResponse/ClaimResponseEx04"
          }
        ]
      },
      "fullUrl": "MessageHeader/Ex04",
      "request": {
        "method": "POST",
        "url": "MessageHeader"
      }
    },
    {
      "resource": {
        "resourceType": "Practitioner",
        "id": "PractitionerEx04",
        "meta": {
          "profile": [
            "https://www.ehealth.fgov.be/standards/fhir/StructureDefinition/be-practitioner"
          ]
        },
        "identifier": [
          {
            "system": "https://www.ehealth.fgov.be/standards/fhir/NamingSystem/nihdi",
            "value": "54263481527"
          }
        ],
        "name": [
          {
            "family": "Smith",
            "given": [
              "John"
            ]
          }
        ]
      },
      "fullUrl": "Practitioner/Ex04",
      "request": {
        "method": "POST",
        "url": "Practitioner"
      }
    },
    {
      "resource": {
        "resourceType": "PractitionerRole",
        "id": "PractitionerRoleEx04",
        "meta": {
          "profile": [
            "https://www.ehealth.fgov.be/standards/fhir/StructureDefinition/be-practitionerrole"
          ]
        },
        "practitioner": {
          "reference": "Practitioner/PractitionerEx04"
        },
        "code": [
          {
            "coding": [
              {
                "system": "https://www.ehealth.fgov.be/standards/fhir/CodeSystem/cd-hcparty",
                "code": "persphysiotherapist",
                "display": "physiotherapist"
              }
            ]
          }
        ]
      },
      "fullUrl": "PractitionerRole/Ex04",
      "request": {
        "method": "POST",
        "url": "PractitionerRole"
      }
    },
    {
      "resource": {
        "resourceType": "Patient",
        "id": "PatientEx04",
        "meta": {
          "profile": [
            "https://www.ehealth.fgov.be/standards/fhir/StructureDefinition/be-patient"
          ]
        },
        "identifier": [
          {
            "system": "https://www.ehealth.fgov.be/standards/fhir/NamingSystem/ssin",
            "value": "73031805784"
          }
        ],
        "name": [
          {
            "family": "Dupont",
            "given": [
              "Jean"
            ]
          }
        ],
        "gender": "male"
      },
      "fullUrl": "Patient/Ex04",
      "request": {
        "method": "POST",
        "url": "Patient"
      }
    },
    {
      "resource": {
        "resourceType": "Organization",
        "id": "OrganizationEx04",
        "meta": {
          "profile": [
            "https://www.ehealth.fgov.be/standards/fhir/StructureDefinition/be-organization"
          ]
        },
        "identifier": [
          {
            "system": "https://www.ehealth.fgov.be/standards/fhir/NamingSystem/insurancenumber",
            "value": "300"
          }
        ],
        "name": "Union Nationale des Mutualités Socialistes - Nationaal Verbond van de Socialistische Mutualiteiten"
      },
      "fullUrl": "Organization/Ex04",
      "request": {
        "method": "POST",
        "url": "Organization"
      }
    },
    {
      "resource": {
        "resourceType": "ClaimResponse",
        "id": "ClaimResponseEx04",
        "meta": {
          "profile": [
            "http://www.mycarenet.be/fhir/StructureDefinition/be-mycarenetclaimresponse"
          ]
        },
        "status": "active",
        "type": {
          "coding": [
            {
              "system": "http://terminology.hl7.org/CodeSystem/claim-type",
              "code": "professional"
            }
          ]
        },
        "subType": {
          "coding": [
            {
              "system": "http://www.mycarenet.be/fhir/CodeSystem/agreement-types",
              "code": "physiotherapy-fb"
            }
          ]
        },
        "use": "preauthorization",
        "patient": {
          "reference": "Patient/PatientEx04"
        },
        "created": "2015-07-14T11:15:30+02:00",
        "insurer": {
          "reference": "Organization/OrganizationEx04"
        },
        "requestor": {
          "reference": "PractitionerRole/PractitionerRoleEx04"
        },
        "outcome": "complete",
        "preAuthRef": "identifiant business de la décision (accord/refus/en traitement)",
        "preAuthPeriod": {
          "start": "2020-01-15",
          "end": "2020-03-15"
        },
        "addItem": [
          {
            "itemSequence": [
              1
            ],
            "productOrService": {
              "coding": [
                {
                  "system": "http://www.mycarenet.be/fhir/CodeSystem/nihdi-physiotherapy-pathologysituationcode",
                  "code": "fb-51"
                }
              ]
            },
            "adjudication": [
              {
                "category": {
                  "coding": [
                    {
                      "system": "http://www.mycarenet.be/fhir/CodeSystem/decision-values",
                      "code": "agreement"
                    }
                  ]
                }
              }
            ]
          }
        ]
      },
      "fullUrl": "ClaimResponse/Ex04",
      "request": {
        "method": "POST",
        "url": "ClaimResponse"
      }
    }
  ]
}
