{
  "resourceType": "Bundle",
  "id": "ex14",
  "meta": {
    "profile": [
      "http://www.mycarenet.be/fhir/StructureDefinition/be-mycarenetpathologyregistration"
    ]
  },
  "entry": [
    {
      "resource": {
        "resourceType": "Bundle",
        "id": "BundleDiagnosticReportEx14-2",
        "type": "collection",
        "entry": [
          {
            "fullUrl": "urn:uuid:DiagnosticReportEx14-2",
            "resource": {
              "resourceType": "DiagnosticReport",
              "id": "DiagnosticReportEx14-2",
              "identifier": [
                {
                  "system": "https://www.somesystem.be",
                  "value": "No123456"
                }
              ],
              "basedOn": [
                {
                  "reference": "ServiceRequest/ServiceRequestEx14-2"
                }
              ],
              "status": "final",
              "code": {
                "coding": [
                  {
                    "system": "http://www.mycarenet.be/fhir/CodeSystem/diagnosticreport-types",
                    "code": "kinepathology"
                  }
                ]
              },
              "subject": {
                "reference": "Patient/PatientEx14-2"
              },
              "encounter": {
                "reference": "Encounter/EncounterEx14-2"
              },
              "effectivePeriod": {
                "start": "2020-01-15",
                "end": "2020-01-20"
              },
              "issued": "2020-01-20T13:28:17+02:00",
              "performer": [
                {
                  "reference": "Practitioner/PractitionerEx14-2"
                }
              ],
              "resultsInterpreter": [
                {
                  "reference": "Practitioner/PractitionerEx14-2"
                }
              ],
              "result": [
                {
                  "reference": "Observation/ObservationEx14-3"
                },
                {
                  "reference": "Observation/ObservationEx14-4"
                }
              ],
              "conclusionCode": [
                {
                  "coding": [
                    {
                      "system": "http://snomed.info/sct",
                      "code": "399068003"
                    }
                  ]
                }
              ]
            }
          },
          {
            "fullUrl": "urn:uuid:PatientEx14-2",
            "resource": {
              "resourceType": "Patient",
              "id": "PatientEx14-2",
              "meta": {
                "profile": [
                  "https://www.ehealth.fgov.be/standards/fhir/StructureDefinition/be-patient"
                ]
              },
              "identifier": [
                {
                  "system": "https://www.ehealth.fgov.be/standards/fhir/NamingSystem/ssin",
                  "value": "73031805784"
                }
              ],
              "name": [
                {
                  "family": "Dupont",
                  "given": [
                    "Jean"
                  ]
                }
              ],
              "gender": "male"
            }
          },
          {
            "fullUrl": "urn:uuid:EncounterEx14-2",
            "resource": {
              "resourceType": "Encounter",
              "id": "EncounterEx14-2",
              "status": "finished",
              "class": {
                "system": "http://terminology.hl7.org/CodeSystem/v3-ActCode",
                "code": "AMB",
                "display": "ambulatory"
              },
              "serviceType": {
                "coding": [
                  {
                    "system": "http://terminology.hl7.org/CodeSystem/service-type",
                    "code": "65"
                  }
                ]
              },
              "subject": {
                "reference": "Patient/PatientEx14-2"
              },
              "participant": [
                {
                  "individual": {
                    "reference": "PractitionerRole/PractitionerRoleEx14-2"
                  }
                }
              ],
              "reasonCode": [
                {
                  "coding": [
                    {
                      "system": "http://snomed.info/sct",
                      "code": "15355001"
                    }
                  ]
                }
              ]
            }
          },
          {
            "fullUrl": "urn:uuid:ConditionEx14-2",
            "resource": {
              "resourceType": "Condition",
              "id": "ConditionEx14-2",
              "clinicalStatus": {
                "coding": [
                  {
                    "system": "http://terminology.hl7.org/CodeSystem/condition-clinical",
                    "code": "resolved"
                  }
                ]
              },
              "verificationStatus": {
                "coding": [
                  {
                    "system": "http://terminology.hl7.org/CodeSystem/condition-ver-status",
                    "code": "confirmed"
                  }
                ]
              },
              "code": {
                "coding": [
                  {
                    "system": "http://snomed.info/sct",
                    "code": "399068003"
                  }
                ]
              },
              "subject": {
                "reference": "Patient/PatientEx14-2"
              },
              "encounter": {
                "reference": "Encounter/EncounterEx14-2"
              },
              "recorder": {
                "reference": "PractitionerRole/PractitionerRoleEx14-2"
              },
              "asserter": {
                "reference": "PractitionerRole/PractitionerRoleEx14-2"
              }
            }
          },
          {
            "fullUrl": "urn:uuid:ProcedureEx14-2",
            "resource": {
              "resourceType": "Procedure",
              "id": "ProcedureEx14-2",
              "extension": [
                {
                  "url": "http://www.mycarenet.be/fhir/StructureDefinition/ReportedNumberOfSessions",
                  "valueDecimal": 15
                }
              ],
              "status": "completed",
              "code": {
                "coding": [
                  {
                    "system": "http://www.mycarenet.be/fhir/CodeSystem/nihdi-legal-physiotherapy-fa",
                    "code": "2"
                  }
                ]
              },
              "subject": {
                "reference": "Patient/PatientEx14-2"
              },
              "encounter": {
                "reference": "Encounter/EncounterEx14-2"
              },
              "performedPeriod": {
                "start": "2020-01-15",
                "end": "2020-01-20"
              },
              "asserter": {
                "reference": "PractitionerRole/PractitionerRoleEx14-2"
              },
              "performer": [
                {
                  "actor": {
                    "reference": "PractitionerRole/PractitionerRoleEx14-2"
                  }
                }
              ],
              "report": [
                {
                  "reference": "DiagnosticReport/DiagnosticReportEx14-2"
                }
              ]
            }
          },
          {
            "fullUrl": "urn:uuid:PractitionerRoleEx14-2",
            "resource": {
              "resourceType": "PractitionerRole",
              "id": "PractitionerRoleEx14-2",
              "meta": {
                "profile": [
                  "https://www.ehealth.fgov.be/standards/fhir/StructureDefinition/be-practitionerrole"
                ]
              },
              "practitioner": {
                "reference": "Practitioner/PractitionerEx14-2"
              },
              "code": [
                {
                  "coding": [
                    {
                      "system": "https://www.ehealth.fgov.be/standards/fhir/CodeSystem/cd-hcparty",
                      "code": "persphysiotherapist",
                      "display": "physiotherapist"
                    }
                  ]
                }
              ]
            }
          },
          {
            "fullUrl": "urn:uuid:PractitionerEx14-2",
            "resource": {
              "resourceType": "Practitioner",
              "id": "PractitionerEx14-2",
              "meta": {
                "profile": [
                  "https://www.ehealth.fgov.be/standards/fhir/StructureDefinition/be-practitioner"
                ]
              },
              "identifier": [
                {
                  "system": "https://www.ehealth.fgov.be/standards/fhir/NamingSystem/nihdi",
                  "value": "54263481527"
                }
              ],
              "name": [
                {
                  "family": "Smith",
                  "given": [
                    "John"
                  ]
                }
              ]
            }
          },
          {
            "fullUrl": "urn:uuid:ServiceRequestEx14-2",
            "resource": {
              "resourceType": "ServiceRequest",
              "id": "ServiceRequestEx14-2",
              "status": "active",
              "intent": "order",
              "quantityQuantity": {
                "value": 14
              },
              "subject": {
                "reference": "Patient/PatientEx14-2"
              },
              "authoredOn": "2020-01-10",
              "requester": {
                "reference": "Practitioner/PractitionerEx14-2"
              },
              "note": [
                {
                  "text": "information complémentaire du prescripteur"
                }
              ]
            }
          },
          {
            "fullUrl": "urn:uuid:ObservationEx14-3",
            "resource": {
              "resourceType": "Observation",
              "id": "ObservationEx14-3",
              "meta": {
                "profile": [
                  "https://www.ehealth.fgov.be/standards/fhir/StructureDefinition/be-observation"
                ]
              },
              "status": "final",
              "code": {
                "coding": [
                  {
                    "system": "http://loinc.org",
                    "code": "10127-9"
                  }
                ]
              },
              "subject": {
                "reference": "Patient/PatientEx14-2"
              },
              "performer": [
                {
                  "reference": "Practitioner/PractitionerEx14-2"
                }
              ]
            }
          },
          {
            "fullUrl": "urn:uuid:ObservationEx14-4",
            "resource": {
              "resourceType": "Observation",
              "id": "ObservationEx14-4",
              "meta": {
                "profile": [
                  "https://www.ehealth.fgov.be/standards/fhir/StructureDefinition/be-observation"
                ]
              },
              "status": "final",
              "code": {
                "coding": [
                  {
                    "system": "http://loinc.org",
                    "code": "8867-4"
                  }
                ]
              },
              "subject": {
                "reference": "Patient/PatientEx14-2"
              },
              "performer": [
                {
                  "reference": "Practitioner/PractitionerEx14-2"
                }
              ]
            }
          }
        ]
      },
      "fullUrl": "BundleDiagnosticReport/Ex14-2",
      "request": {
        "method": "POST",
        "url": "Bundle"
      }
    },
    {
      "resource": {
        "resourceType": "MessageHeader",
        "id": "MessageHeaderEx14",
        "meta": {
          "profile": [
            "http://www.mycarenet.be/fhir/StructureDefinition/be-mycareneteagreementmessageheader"
          ]
        },
        "eventCoding": {
          "system": "http://www.mycarenet.be/fhir/CodeSystem/message-events",
          "code": "diagnosticReport"
        },
        "destination": [
          {
            "name": "MyCareNet",
            "endpoint": "MyCareNet"
          }
        ],
        "sender": {
          "reference": "PractitionerRole/PractitionerRoleEx14"
        },
        "source": {
          "endpoint": "urn:uuid:PractitionerRoleEx14"
        }
      },
      "fullUrl": "MessageHeader/Ex14",
      "request": {
        "method": "POST",
        "url": "MessageHeader"
      }
    },
    {
      "resource": {
        "resourceType": "Practitioner",
        "id": "PractitionerEx14",
        "meta": {
          "profile": [
            "https://www.ehealth.fgov.be/standards/fhir/StructureDefinition/be-practitioner"
          ]
        },
        "identifier": [
          {
            "system": "https://www.ehealth.fgov.be/standards/fhir/NamingSystem/nihdi",
            "value": "54263481527"
          }
        ],
        "name": [
          {
            "family": "Smith",
            "given": [
              "John"
            ]
          }
        ]
      },
      "fullUrl": "Practitioner/Ex14",
      "request": {
        "method": "POST",
        "url": "Practitioner"
      }
    },
    {
      "resource": {
        "resourceType": "PractitionerRole",
        "id": "PractitionerRoleEx14",
        "meta": {
          "profile": [
            "https://www.ehealth.fgov.be/standards/fhir/StructureDefinition/be-practitionerrole"
          ]
        },
        "practitioner": {
          "reference": "Practitioner/PractitionerEx14"
        },
        "code": [
          {
            "coding": [
              {
                "system": "https://www.ehealth.fgov.be/standards/fhir/CodeSystem/cd-hcparty",
                "code": "persphysiotherapist",
                "display": "physiotherapist"
              }
            ]
          }
        ]
      },
      "fullUrl": "PractitionerRole/Ex14",
      "request": {
        "method": "POST",
        "url": "PractitionerRole"
      }
    }
  ],
  "timestamp": "2015-07-14T11:15:33+02:00",
  "type": "transaction"
}
